Copper (4-0836) EOS from Moriarity 
1 3.615 137.0 5.48 1.0
d (A)       I/I0    h   k   l
2.088       100     1   1   1
1.808        46     2   0   0
1.278        20     2   2   0
1.0900       17     3   1   1
1.0436        5     2   2   2
0.9038        3     4   0   0
0.8293        9     3   3   1
0.8083        8     4   2   0
